#2-THETA,#INTENSITY
1.95,1404
2,863
2.05,1256
2.1,932
2.15,1203
2.2,1040
2.25,885
2.3,1271
2.35,816
2.4,1093
2.45,900
2.5,845
2.55,918
2.6,774
2.65,890
2.7,848
2.75,797
2.8,803
2.85,785
2.9,695
2.95,777
3,712
3.05,727
3.1,664
3.15,614
3.2,687
3.25,567
3.3,683
3.35,569
3.4,609
3.45,629
3.5,569
3.55,654
3.6,483
3.65,579
3.7,530
3.75,511
3.8,581
3.85,431
3.9,572
3.95,486
4,519
4.05,553
4.1,418
4.15,521
4.2,464
4.25,459
4.3,464
4.35,451
4.4,477
4.45,474
4.5,432
4.55,443
4.6,426
4.65,381
4.7,383
4.75,420
4.8,435
4.85,416
4.9,422
4.95,417
5,445
5.05,445
5.1,428
5.15,403
5.2,431
5.25,382
5.3,429
5.35,396
5.4,483
5.45,420
5.5,425
5.55,425
5.6,388
5.65,423
5.7,405
5.75,411
5.8,443
5.85,435
5.9,388
5.95,405
6,365
6.05,382
6.1,398
6.15,414
6.2,369
6.25,387
6.3,372
6.35,429
6.4,378
6.45,347
6.5,348
6.55,354
6.6,395
6.65,385
6.7,372
6.75,379
6.8,390
6.85,390
6.9,333
6.95,337
7,354
7.05,364
7.1,408
7.15,359
7.2,373
7.25,363
7.3,353
7.35,354
7.4,368
7.45,343
7.5,358
7.55,377
7.6,360
7.65,363
7.7,386
7.75,382
7.8,353
7.85,339
7.9,333
7.95,390
8,373
8.05,356
8.1,367
8.15,328
8.2,344
8.25,337
8.3,362
8.35,387
8.4,318
8.45,367
8.5,339
8.55,370
8.6,331
8.65,345
8.7,315
8.75,344
8.8,364
8.85,345
8.9,353
8.95,349
9,342
9.05,352
9.1,347
9.15,331
9.2,363
9.25,342
9.3,331
9.35,348
9.4,332
9.45,313
9.5,354
9.55,351
9.6,380
9.65,348
9.7,343
9.75,367
9.8,359
9.85,378
9.9,361
9.95,344
10,323
10.05,354
10.1,339
10.15,323
10.2,363
10.25,355
10.3,344
10.35,346
10.4,354
10.45,345
10.5,332
10.55,332
10.6,313
10.65,321
10.7,356
10.75,342
10.8,332
10.85,325
10.9,326
10.95,371
11,366
11.05,360
11.1,374
11.15,358
11.2,352
11.25,371
11.3,316
11.35,344
11.4,343
11.45,328
11.5,331
11.55,336
11.6,338
11.65,342
11.7,331
11.75,362
11.8,349
11.85,325
11.9,340
11.95,377
12,343
12.05,350
12.1,355
12.15,340
12.2,339
12.25,384
12.3,335
12.35,335
12.4,360
12.45,311
12.5,338
12.55,364
12.6,345
12.65,344
12.7,364
12.75,338
12.8,310
12.85,360
12.9,323
12.95,367
13,392
13.05,343
13.1,339
13.15,356
13.2,342
13.25,319
13.3,350
13.35,342
13.4,346
13.45,326
13.5,340
13.55,378
13.6,340
13.65,339
13.7,358
13.75,348
13.8,347
13.85,343
13.9,352
13.95,345
14,346
14.05,363
14.1,384
14.15,349
14.2,358
14.25,360
14.3,332
14.35,326
14.4,364
14.45,385
14.5,378
14.55,352
14.6,365
14.65,349
14.7,377
14.75,362
14.8,377
14.85,374
14.9,358
14.95,371
15,368
15.05,340
15.1,361
15.15,373
15.2,338
15.25,381
15.3,356
15.35,350
15.4,353
15.45,348
15.5,348
15.55,360
15.6,380
15.65,365
15.7,388
15.75,426
15.8,463
15.85,485
15.9,499
15.95,508
16,530
16.05,499
16.1,500
16.15,457
16.2,433
16.25,432
16.3,403
16.35,395
16.4,385
16.45,402
16.5,360
16.55,376
16.6,357
16.65,385
16.7,397
16.75,359
16.8,341
16.85,400
16.9,401
16.95,395
17,411
17.05,381
17.1,412
17.15,405
17.2,360
17.25,376
17.3,393
17.35,405
17.4,426
17.45,406
17.5,400
17.55,407
17.6,403
17.65,403
17.7,448
17.75,437
17.8,418
17.85,430
17.9,406
17.95,387
18,427
18.05,405
18.1,410
18.15,429
18.2,436
18.25,436
18.3,428
18.35,405
18.4,411
18.45,411
18.5,424
18.55,427
18.6,433
18.65,442
18.7,423
18.75,438
18.8,430
18.85,435
18.9,424
18.95,450
19,423
19.05,444
19.1,447
19.15,443
19.2,431
19.25,431
19.3,411
19.35,439
19.4,423
19.45,435
19.5,403
19.55,448
19.6,450
19.65,439
19.7,450
19.75,461
19.8,494
19.85,498
19.9,516
19.95,543
20,548
20.05,543
20.1,506
20.15,539
20.2,462
20.25,455
20.3,447
20.35,437
20.4,440
20.45,429
20.5,418
20.55,433
20.6,453
20.65,450
20.7,438
20.75,427
20.8,436
20.85,428
20.9,436
20.95,438
21,429
21.05,449
21.1,455
21.15,444
21.2,438
21.25,455
21.3,449
21.35,450
21.4,455
21.45,451
21.5,441
21.55,423
21.6,440
21.65,460
21.7,437
21.75,446
21.8,468
21.85,417
21.9,481
21.95,469
22,500
22.05,480
22.1,499
22.15,503
22.2,481
22.25,453
22.3,479
22.35,478
22.4,474
22.45,483
22.5,466
22.55,481
22.6,440
22.65,452
22.7,453
22.75,481
22.8,465
22.85,477
22.9,492
22.95,487
23,498
23.05,539
23.1,515
23.15,512
23.2,515
23.25,527
23.3,517
23.35,508
23.4,463
23.45,471
23.5,486
23.55,496
23.6,484
23.65,502
23.7,493
23.75,472
23.8,523
23.85,512
23.9,501
23.95,525
24,522
24.05,514
24.1,517
24.15,509
24.2,517
24.25,526
24.3,539
24.35,550
24.4,520
24.45,503
24.5,531
24.55,511
24.6,510
24.65,526
24.7,512
24.75,530
24.8,509
24.85,536
24.9,547
24.95,520
25,545
25.05,574
25.1,578
25.15,582
25.2,613
25.25,635
25.3,679
25.35,767
25.4,856
25.45,972
25.5,1060
25.55,1110
25.6,1129
25.65,1086
25.7,971
25.75,869
25.8,721
25.85,667
25.9,606
25.95,585
26,542
26.05,571
26.1,595
26.15,600
26.2,644
26.25,664
26.3,720
26.35,786
26.4,808
26.45,823
26.5,783
26.55,731
26.6,726
26.65,670
26.7,643
26.75,595
26.8,588
26.85,576
26.9,546
26.95,556
27,542
27.05,537
27.1,517
27.15,526
27.2,561
27.25,583
27.3,596
27.35,682
27.4,753
27.45,872
27.5,989
27.55,1022
27.6,1046
27.65,1047
27.7,978
27.75,857
27.8,782
27.85,676
27.9,645
27.95,603
28,614
28.05,596
28.1,617
28.15,615
28.2,648
28.25,653
28.3,727
28.35,724
28.4,744
28.45,762
28.5,738
28.55,695
28.6,655
28.65,613
28.7,578
28.75,543
28.8,549
28.85,540
28.9,545
28.95,531
29,558
29.05,597
29.1,659
29.15,654
29.2,710
29.25,753
29.3,785
29.35,856
29.4,872
29.45,878
29.5,897
29.55,877
29.6,838
29.65,737
29.7,731
29.75,696
29.8,677
29.85,683
29.9,670
29.95,622
30,637
30.05,612
30.1,583
30.15,570
30.2,567
30.25,564
30.3,556
30.35,554
30.4,546
30.45,549
30.5,549
30.55,549
30.6,580
30.65,609
30.7,619
30.75,690
30.8,744
30.85,753
30.9,780
30.95,785
31,764
31.05,730
31.1,701
31.15,690
31.2,649
31.25,642
31.3,645
31.35,629
31.4,596
31.45,570
31.5,576
31.55,569
31.6,560
31.65,552
31.7,561
31.75,599
31.8,586
31.85,622
31.9,685
31.95,760
32,846
32.05,938
32.1,979
32.15,1174
32.2,1342
32.25,1460
32.3,1529
32.35,1645
32.4,1595
32.45,1634
32.5,1620
32.55,1537
32.6,1476
32.65,1391
32.7,1264
32.75,1104
32.8,1011
32.85,868
32.9,819
32.95,762
33,750
33.05,761
33.1,760
33.15,723
33.2,719
33.25,669
33.3,616
33.35,558
33.4,543
33.45,518
33.5,527
33.55,534
33.6,556
33.65,507
33.7,503
33.75,533
33.8,523
33.85,520
33.9,507
33.95,538
34,516
34.05,568
34.1,572
34.15,558
34.2,618
34.25,662
34.3,762
34.35,866
34.4,1011
34.45,1118
34.5,1294
34.55,1376
34.6,1372
34.65,1388
34.7,1237
34.75,1102
34.8,1009
34.85,893
34.9,794
34.95,748
35,746
35.05,735
35.1,765
35.15,846
35.2,861
35.25,884
35.3,955
35.35,914
35.4,958
35.45,873
35.5,867
35.55,880
35.6,875
35.65,874
35.7,924
35.75,881
35.8,933
35.85,905
35.9,889
35.95,835
36,804
36.05,740
36.1,710
36.15,700
36.2,646
36.25,618
36.3,596
36.35,589
36.4,528
36.45,538
36.5,563
36.55,571
36.6,621
36.65,667
36.7,633
36.75,618
36.8,650
36.85,649
36.9,646
36.95,641
37,672
37.05,648
37.1,686
37.15,734
37.2,774
37.25,787
37.3,846
37.35,905
37.4,912
37.45,861
37.5,783
37.55,732
37.6,661
37.65,593
37.7,554
37.75,535
37.8,501
37.85,473
37.9,503
37.95,490
38,514
38.05,501
38.1,508
38.15,499
38.2,510
38.25,477
38.3,496
38.35,520
38.4,512
38.45,499
38.5,492
38.55,500
38.6,483
38.65,494
38.7,500
38.75,487
38.8,490
38.85,487
38.9,477
38.95,466
39,477
39.05,459
39.1,469
39.15,462
39.2,475
39.25,496
39.3,514
39.35,525
39.4,517
39.45,539
39.5,495
39.55,511
39.6,471
39.65,486
39.7,464
39.75,470
39.8,468
39.85,493
39.9,481
39.95,495
40,490
40.05,477
40.1,517
40.15,500
40.2,517
40.25,526
40.3,521
40.35,525
40.4,539
40.45,581
40.5,634
40.55,650
40.6,680
40.65,714
40.7,734
40.75,746
40.8,727
40.85,700
40.9,727
40.95,711
41,746
41.05,746
41.1,808
41.15,884
41.2,987
41.25,1092
41.3,1144
41.35,1248
41.4,1384
41.45,1434
41.5,1426
41.55,1302
41.6,1284
41.65,1152
41.7,1070
41.75,968
41.8,904
41.85,912
41.9,861
41.95,834
42,843
42.05,880
42.1,845
42.15,872
42.2,881
42.25,944
42.3,1019
42.35,1015
42.4,1027
42.45,954
42.5,926
42.55,849
42.6,757
42.65,664
42.7,571
42.75,586
42.8,546
42.85,518
42.9,493
42.95,500
43,486
43.05,484
43.1,473
43.15,445
43.2,451
43.25,470
43.3,479
43.35,459
43.4,486
43.45,500
43.5,485
43.55,484
43.6,489
43.65,488
43.7,512
43.75,484
43.8,475
43.85,487
43.9,483
43.95,495
44,507
44.05,512
44.1,491
44.15,512
44.2,474
44.25,492
44.3,520
44.35,520
44.4,496
44.45,490
44.5,490
44.55,492
44.6,441
44.65,483
44.7,493
44.75,469
44.8,492
44.85,426
44.9,471
44.95,478
45,467
45.05,496
45.1,472
45.15,499
45.2,480
45.25,501
45.3,500
45.35,501
45.4,471
45.45,499
45.5,491
45.55,499
45.6,521
45.65,546
45.7,561
45.75,587
45.8,578
45.85,603
45.9,647
45.95,680
46,715
46.05,696
46.1,723
46.15,714
46.2,707
46.25,668
46.3,666
46.35,645
46.4,583
46.45,582
46.5,545
46.55,565
46.6,524
46.65,534
46.7,506
46.75,461
46.8,454
46.85,427
46.9,451
46.95,468
47,457
47.05,466
47.1,439
47.15,447
47.2,466
47.25,464
47.3,494
47.35,505
47.4,488
47.45,528
47.5,540
47.55,561
47.6,562
47.65,549
47.7,536
47.75,517
47.8,536
47.85,524
47.9,529
47.95,534
48,516
48.05,529
48.1,503
48.15,497
48.2,464
48.25,488
48.3,489
48.35,521
48.4,480
48.45,499
48.5,537
48.55,524
48.6,557
48.65,583
48.7,608
48.75,582
48.8,563
48.85,596
48.9,558
48.95,507
49,503
49.05,543
49.1,541
49.15,536
49.2,608
49.25,609
49.3,636
49.35,671
49.4,686
49.45,698
49.5,687
49.55,665
49.6,625
49.65,590
49.7,550
49.75,561
49.8,599
49.85,589
49.9,596
49.95,560
50,595
50.05,608
50.1,563
50.15,559
50.2,559
50.25,554
50.3,555
50.35,529
50.4,550
50.45,534
50.5,522
50.55,506
50.6,503
50.65,491
50.7,488
50.75,486
50.8,475
50.85,460
50.9,454
50.95,469
51,458
51.05,439
51.1,477
51.15,478
51.2,462
51.25,423
51.3,453
51.35,487
51.4,468
51.45,480
51.5,479
51.55,500
51.6,532
51.65,488
51.7,522
51.75,505
51.8,551
51.85,545
51.9,571
51.95,558
52,591